Folder: PyEIS/Tutorials/data

File: ex2.mpt
EC-Lab ASCII FILE
Nb header lines : 61

Potentio Electrochemical Impedance Spectroscopy

Run on channel : 1 (SN 12040)
User : kknu
CE vs. WE compliance from -10 V to 10 V
Electrode connection : standard
Ewe ctrl range : min = -1.50 V, max = 0.50 V
Safety Limits :
	Do not start on E overload
Acquisition started on : xx/xx/xxxx xx:xx:xx
Technique started on : xx/xx/xxxx xx:xx:xx
Saved on :
	File : xxx
	Directory : xxx\
	Host : xxx.xxx.xxx.xx
Device : VSP (SN xxxx)
Address : xxx.xxx.xx.xxx
EC-Lab for windows v11.16 (software)
Internet server v11.16 (firmware)
Command interpretor v11.16 (firmware)
Electrode material :
Initial state :
Electrolyte :
Comments :
Electrode surface area : 0.001 cm²
Characteristic mass : 0.001 g
Equivalent Weight : 0.000 g/eq.
Density : 0.000 g/cm3
Cycle Definition : Charge/Discharge alternance
Mode                Single sine
E (V)               -1.1000
vs.                 Ref
tE (h:m:s)          0:01:0.0000
record              0
dI                  0.000
unit dI             mA
dt (s)              0.000
fi                  200.000
unit fi             kHz
ff                  10.000
unit ff             mHz
Nd                  8
Points              per decade
spacing             Logarithmic
Va (mV)             10.0
pw                  0.50
Na                  3
corr                0
E range min (V)     -1.500
E range max (V)     0.500
I Range             Auto
Bandwidth           5
nc cycles           0
goto Ns'            0
nr cycles           1
inc. cycle          1

freq/Hz	Re(Z)/Ohm	-Im(Z)/Ohm	|Z|/Ohm	Phase(Z)/deg	time/s	<Ewe>/V	<I>/mA	Cs/µF	Cp/µF	cycle number	I Range	|Ewe|/V	|I|/A	Re(Y)/Ohm-1	Im(Y)/Ohm-1	|Y|/Ohm-1	Phase(Y)/deg
200019	424.924	375.779	567.248	-41.4878	17279.8	-1.10152	-0.00526601	0.00211746	0.000929255	1	12	0.0103125	1.81799e-05	0.00132058	0.00116785	0.0017629	41.4878
112012	854.828	1316.62	1569.78	-57.0059	17281.1	-1.10052	-0.00409685	0.00107919	0.000759169	1	12	0.0101994	6.49733e-06	0.000346897	0.000534295	0.000637032	57.0059
62734.4	1899.31	997.157	2145.16	-27.6999	17282.2	-1.10048	-0.00409726	0.0025442	0.000549744	1	12	0.0104554	4.87395e-06	0.000412741	0.000216693	0.000466166	27.6999
35136.7	2127.1	540.348	2194.66	-14.2534	17283.4	-1.10043	-0.00409502	0.00838273	0.000508159	1	12	0.0102377	4.66484e-06	0.000441626	0.000112187	0.000455652	14.2534
19677.7	2170.52	298.904	2191	-7.84094	17284.3	-1.10048	-0.00410488	0.0270591	0.000503607	1	12	0.0106224	4.84821e-06	0.000452145	6.22654e-05	0.000456413	7.84094
11025.4	2176.6	171.614	2183.36	-4.50815	17285.3	-1.10042	-0.00408643	0.084115	0.000519672	1	12	0.010304	4.71935e-06	0.000456593	3.60001e-05	0.00045801	4.50815
6195.49	2186.17	123.404	2189.65	-3.23077	17286.5	-1.1004	-0.00410579	0.208169	0.000661184	1	12	0.0105129	4.80116e-06	0.000455968	2.57382e-05	0.000456693	3.23077
3456.11	2194.63	79.8567	2196.08	-2.08392	17288	-1.10043	-0.00410618	0.576663	0.000762512	1	12	0.0106236	4.83754e-06	0.000455055	1.65582e-05	0.000455356	2.08392
1935.62	2199.15	71.5207	2200.31	-1.86272	17289.5	-1.10043	-0.0041114	1.14966	0.00121469	1	12	0.0106175	4.82547e-06	0.000454241	1.47729e-05	0.000454482	1.86272
1083.96	2203.65	95.6397	2205.72	-2.48512	17291	-1.10046	-0.00409804	1.53521	0.00288632	1	12	0.0105937	4.80285e-06	0.00045294	1.96579e-05	0.000453367	2.48512
607.527	2215.6	128.64	2219.33	-3.32291	17292.5	-1.10046	-0.00409087	2.03648	0.00684204	1	12	0.0106016	4.77692e-06	0.000449829	2.61175e-05	0.000450587	3.32291
340.109	2243.73	201.953	2252.8	-5.1432	17294	-1.10046	-0.00410106	2.31714	0.0186212	1	12	0.0106312	4.71909e-06	0.000442105	3.97928e-05	0.000443892	5.1432
190.549	2270.27	329.476	2294.05	-8.25748	17295.5	-1.10044	-0.00410801	2.53507	0.0522916	1	12	0.0106582	4.64603e-06	0.000431391	6.26063e-05	0.000435911	8.25748
106.673	2340.77	559.734	2406.76	-13.4483	17297.3	-1.10053	-0.00422752	2.66554	0.144172	1	13	0.0106772	4.43633e-06	0.000404103	9.66307e-05	0.000415496	13.4483
59.7895	2587.93	787.288	2705.03	-16.9206	17298.8	-1.10049	-0.00422782	3.38112	0.286408	1	13	0.0105939	3.91638e-06	0.000353678	0.000107594	0.000369682	16.9206
33.4276	2680.36	1444.53	3044.83	-28.3216	17300.3	-1.10042	-0.00421879	3.29602	0.741848	1	13	0.0106492	3.49747e-06	0.000289113	0.000155812	0.000328425	28.3216
18.735	3164.65	2258.91	3888.15	-35.519	17301.9	-1.10042	-0.00421944	3.76069	1.26935	1	13	0.0106047	2.72744e-06	0.000209334	0.000149422	0.000257192	35.519
10.5007	4201.99	3235.07	5303.05	-37.5923	17303.4	-1.10045	-0.00422073	4.68511	1.74355	1	13	0.0106001	1.99887e-06	0.000149418	0.000115035	0.000188571	37.5923
5.88291	5797.68	4018.6	7054.23	-34.7273	17305	-1.10044	-0.00422376	6.73215	2.18476	1	13	0.0106221	1.50577e-06	0.000116508	8.07561e-05	0.000141759	34.7273
3.29363	7658.77	4371.71	8818.65	-29.7182	17306.9	-1.10044	-0.00422401	11.0534	2.71639	1	13	0.0106257	1.20491e-06	9.84816e-05	5.62143e-05	0.000113396	29.7182
1.84257	9308.47	4397.13	10294.8	-25.2851	17310.4	-1.10042	-0.00420952	19.6439	3.5837	1	13	0.0106228	1.03186e-06	8.78304e-05	4.14893e-05	9.71367e-05	25.2851
1.0334	10678.2	4599.27	11626.6	-23.3023	17316.4	-1.10043	-0.00420464	33.486	5.24007	1	13	0.0106253	9.13878e-07	7.8994e-05	3.4024e-05	8.60098e-05	23.3023
0.578532	12107.9	5268.69	13204.5	-23.5161	17327	-1.10043	-0.00419462	52.2144	8.31286	1	13	0.0106294	8.04985e-07	6.9442e-05	3.02174e-05	7.57317e-05	23.5161
0.323901	13683	6464.32	15133.2	-25.2876	17348.4	-1.10042	-0.00419985	76.0125	13.8698	1	14	0.0106278	7.02287e-07	5.9748e-05	2.82269e-05	6.60801e-05	25.2876
0.181534	15764.7	8460.01	17891.3	-28.2199	17382.2	-1.10043	-0.00418841	103.631	23.1714	1	14	0.0106266	5.93954e-07	4.92497e-05	2.64295e-05	5.58932e-05	28.2199
0.101725	18714.6	11554.9	21994.3	-31.6923	17442.5	-1.10043	-0.00419924	135.402	37.3711	1	14	0.010626	4.83126e-07	3.86864e-05	2.3886e-05	4.54663e-05	31.6923
0.0569665	22988.3	16133.2	28084.6	-35.0613	17550.1	-1.10044	-0.00418055	173.172	57.1461	1	14	0.0106226	3.78235e-07	2.91455e-05	2.04544e-05	3.56067e-05	35.0613
0.0319138	31013.8	22117.6	38092.6	-35.4947	17742.1	-1.10043	-0.00408656	225.478	76.0151	1	14	0.0106229	2.78872e-07	2.13734e-05	1.52426e-05	2.62519e-05	35.4947
0.0178412	45350.6	26867.9	52712.1	-30.6446	18085.3	-1.10043	-0.0040263	332.019	86.2603	1	14	0.0106245	2.01558e-07	1.63216e-05	9.66972e-06	1.8971e-05	30.6446
0.0100058	57784.7	25871.3	63311.9	-24.119	18697.3	-1.10043	-0.00371383	614.825	102.664	1	14	0.0106262	1.67839e-07	1.44159e-05	6.45428e-06	1.57948e-05	24.119
149678	402.674	850.574	941.075	-64.6664	18759.7	-1.10061	-0.00355599	0.00125012	0.00102124	2	12	0.0101284	1.07626e-05	0.00045468	0.000960425	0.00106261	64.6664
83828.1	1537.55	1300.14	2013.55	-40.2176	18761	-1.10049	-0.00353501	0.0014603	0.000608826	2	12	0.0107758	5.35161e-06	0.000379229	0.000320673	0.000496634	40.2176
46953.1	2070.57	713.371	2190.01	-19.0103	18762.1	-1.10051	-0.00356817	0.0047516	0.000504172	2	12	0.0102806	4.69432e-06	0.000431715	0.000148738	0.000456619	19.0103
26298.8	2145.86	408.501	2184.4	-10.7783	18763.2	-1.10044	-0.00355806	0.0148146	0.000518099	2	12	0.0101723	4.65678e-06	0.000449716	8.56109e-05	0.000457792	10.7783
14726.6	2173.37	219.071	2184.39	-5.75584	18764.2	-1.10047	-0.00355876	0.0493326	0.000496187	2	12	0.010068	4.60908e-06	0.000455487	4.5912e-05	0.000457795	5.75584
8325.19	2178.57	136.034	2182.82	-3.573	18765.1	-1.1004	-0.00351945	0.140533	0.000545806	2	12	0.0104332	4.77971e-06	0.000457233	2.85504e-05	0.000458124	3.573
4621.48	2184.14	87.5797	2185.89	-2.29622	18766.5	-1.10049	-0.00355344	0.39322	0.000631226	2	12	0.0105372	4.82056e-06	0.000457111	1.83293e-05	0.000457479	2.29622
2585.83	2196.27	68.6794	2197.34	-1.79111	18768	-1.10049	-0.00355148	0.896178	0.000875491	2	12	0.0105924	4.82054e-06	0.000454873	1.42243e-05	0.000455095	1.79111
1448.61	2196.11	84.0409	2197.71	-2.19154	18769.5	-1.10045	-0.00355716	1.30731	0.00191169	2	12	0.0106265	4.83526e-06	0.000454686	1.74e-05	0.000455018	2.19154
811.298	2207.76	111.203	2210.56	-2.88349	18771	-1.10043	-0.00354349	1.7641	0.00446426	2	12	0.0106622	4.82328e-06	0.000451801	2.27567e-05	0.000452374	2.88349
454.564	2217.25	169.994	2223.76	-4.38422	18772.5	-1.10042	-0.0035721	2.05964	0.012036	2	12	0.0106261	4.77844e-06	0.000448373	3.43762e-05	0.000449689	4.38422
254.43	2243.37	256.444	2257.98	-6.52129	18774	-1.10047	-0.0035368	2.43927	0.0314633	2	12	0.0106431	4.71357e-06	0.000440009	5.02983e-05	0.000442874	6.52129
142.492	2303.45	424.499	2342.24	-10.4418	18775.5	-1.10041	-0.0035794	2.63119	0.086426	2	12	0.0106248	4.53618e-06	0.000419872	7.73776e-05	0.000426942	10.4418
79.8212	2378.87	689.487	2476.78	-16.1636	18777.3	-1.10048	-0.00368114	2.89185	0.224107	2	13	0.0106657	4.30628e-06	0.000387791	0.000112396	0.000403751	16.1636
44.728	2498.72	1148.22	2749.91	-24.6798	18778.8	-1.10049	-0.0036855	3.09896	0.54029	2	13	0.0106264	3.86426e-06	0.000330431	0.00015184	0.000363648	24.6798
25.0401	2797.22	1862.44	3360.53	-33.6564	18780.3	-1.10048	-0.00366937	3.41273	1.04822	2	13	0.0106463	3.16805e-06	0.000247692	0.000164918	0.000297572	33.6564
14.0176	3466.12	2922.87	4534	-40.1399	18781.9	-1.10046	-0.00369381	3.8845	1.61433	2	13	0.0106091	2.33989e-06	0.000168609	0.000142182	0.000220556	40.1399
7.85965	4819.36	4158.58	6365.53	-40.7906	18783.6	-1.10047	-0.00370164	4.86936	2.07822	2	13	0.0106074	1.66638e-06	0.000118938	0.00010263	0.000157096	40.7906
4.39893	6927.39	5151.27	8632.75	-36.6348	18785.4	-1.10045	-0.0037112	7.02358	2.50086	2	14	0.0106369	1.23216e-06	9.29548e-05	6.9122e-05	0.000115838	36.6348
2.46607	9196.27	5471.69	10701	-30.7522	18788	-1.10045	-0.00371022	11.7949	3.08383	2	14	0.0106363	9.93953e-07	8.03092e-05	4.77832e-05	9.34494e-05	30.7522
1.38128	11216.6	5629.22	12549.9	-26.6504	18792.5	-1.10044	-0.00370819	20.4688	4.11818	2	14	0.0106287	8.46912e-07	7.12163e-05	3.57409e-05	7.96817e-05	26.6504
0.773208	12979.4	6073.39	14330.1	-25.0761	18800.5	-1.10045	-0.00370168	33.8916	6.08779	2	14	0.0106208	7.41157e-07	6.3206e-05	2.95758e-05	6.97834e-05	25.0761
0.433065	14867.7	7065.35	16461.1	-25.4177	18814.7	-1.10045	-0.00369085	52.0155	9.58255	2	14	0.0106269	6.45575e-07	5.48688e-05	2.60744e-05	6.07492e-05	25.4177
0.242323	17045.8	8779.23	19173.8	-27.2502	18840.1	-1.10044	-0.00368035	74.8116	15.6843	2	14	0.0106287	5.54337e-07	4.63662e-05	2.38803e-05	5.21545e-05	27.2502
0.135846	19887.8	11476.3	22961.5	-29.9871	18885.2	-1.10044	-0.00366172	102.087	25.502	2	14	0.010626	4.62773e-07	3.77213e-05	2.17671e-05	4.35512e-05	29.9871
0.0761037	23819.1	15429.2	28379.7	-32.9338	18965.8	-1.10043	-0.00363351	135.541	40.0627	2	14	0.0106279	3.74489e-07	2.95739e-05	1.91569e-05	3.52364e-05	32.9338
0.0426446	29541.3	21266.9	36400.1	-35.7502	19109.5	-1.10044	-0.00359368	175.49	59.9037	2	14	0.0106254	2.91906e-07	2.22959e-05	1.60509e-05	2.74724e-05	35.7502
0.0238768	40292.2	29436	49899.3	-36.1505	19366.1	-1.10044	-0.00350388	226.446	78.8013	2	14	0.0106249	2.12928e-07	1.6182e-05	1.1822e-05	2.00404e-05	36.1505
0.0133776	58070.4	36519.1	68599	-32.1648	19824.4	-1.10044	-0.00337145	325.779	92.3269	2	14	0.0106261	1.54901e-07	1.23401e-05	7.76042e-06	1.45775e-05	32.1648
0.0100058	62483.3	31125.2	69806.5	-26.4796	20174.5	-1.10044	-0.00326775	511.043	101.599	2	14	0.0106246	1.52201e-07	1.28225e-05	6.38735e-06	1.43253e-05	26.4796